{
  "resourceType": "Bundle",
  "id": "example-bundle",
  "meta": {"profile": ["KDS_Person_v2"]},
  "type": "transaction",
  "entry": [
    {
      "fullUrl": "urn:uuid:00000000-0000-0000-0000-000000000001",
      "request": {
        "method": "POST",
        "url": "Patient"
      },
      "resource": {
        "resourceType": "Patient",
        "identifier": [
          {
            "system": "id",
            "value": "dev/null"
          },
          {
            "system": "gkv",
            "value": "gkv id value"
          },
          {
            "system": "pkv",
            "value": "pkv id value"
          }
        ],
        "id": "example-patient",
        "meta": {
          "profile": [
            "https://www.medizininformatik-initiative.de/fhir/core/modul-person/StructureDefinition/Todesursache"
          ]
        },
        "gender": "female",
        "name": [
          {
            "use": "official",
            "given": [
              "Jane"
            ],
            "family": "Doe",
            "prefix": [
              "Ms"
            ],
            "suffix": [
              "Jr1",
              "Jr2"
            ]
          },
          {
            "use": "maiden",
            "family": "MaidenDoe",
            "given": [
              "Emily"
            ],
            "suffix": [
              "Jr3",
              "Jr4"
            ]
          }
        ],
        "birthDate": "1990-01-01",
        "_birthDate": {
          "extension": [
            {
              "url": "isdeceased",
              "valueBoolean": true
            }
          ]
        },
        "address": [
          {
            "use": "home",
            "type": "both",
            "line": [
              "123 Main St"
            ],
            "city": "123 City",
            "state": "CA123",
            "postalCode": "12390210",
            "country": "123USA"
          },
          {
            "use": "temp",
            "line": [
              "PO Box 456"
            ],
            "city": "456 City",
            "state": "CA456",
            "postalCode": "45690210",
            "country": "456USA"
          }
        ],
        "deceasedDateTime": "2022-02-03T04:05:06+01:00",
        "contact": [
          {
            "relationship": [
              {
                "coding": [
                  {
                    "system": "http://hl7.org/fhir/ValueSet/contact-relationship",
                    "code": "emergency",
                    "display": "Emergency Contact"
                  }
                ]
              }
            ],
            "name": {
              "use": "official",
              "given": [
                "John"
              ],
              "family": "Smith",
              "text": "contact person name"
            },
            "telecom": [
              {
                "system": "phone",
                "value": "+1-555-1234"
              },
              {
                "system": "email",
                "value": "jane.doe@example.com"
              }
            ],
            "address": {
              "text": "contact person address"
            },
            "organization": [
              {
                "reference": "Organization/5678",
                "display": "Organization"
              }
            ]
          }
        ],
        "managingOrganization": [
          {
            "reference": "Organization/1234",
            "display": "managing Organization"
          }
        ]
      }
    },
    {
      "fullUrl": "urn:uuid:00000000-0000-0000-0000-000000000002",
      "request": {
        "method": "POST",
        "url": "Organization"
      },
      "resource": {
        "resourceType": "Organization",
        "id": "1234",
        "name": "Example Administrative Organization",
        "identifier": [
          {
            "system": "http://hl7.org/fhir/identifier",
            "value": "ORG-98765"
          }
        ]
      }
    },
    {
      "fullUrl": "urn:uuid:00000000-0000-0000-0000-000000000003",
      "request": {
        "method": "POST",
        "url": "Organization"
      },
      "resource": {
        "resourceType": "Organization",
        "id": "5678",
        "name": "Example Health Clinic",
        "identifier": [
          {
            "system": "http://hl7.org/fhir/identifier",
            "value": "ORG-12345"
          }
        ]
      }
    },
    {
      "fullUrl": "urn:uuid:00000000-0000-0000-0000-000000000004",
      "request": {
        "method": "POST",
        "url": "Condition"
      },
      "resource": {
        "resourceType": "Condition",
        "id": "example-cause-of-death",
        "meta": {
          "profile": [
            "https://www.medizininformatik-initiative.de/fhir/core/modul-person/StructureDefinition/Todesursache"
          ],
          "versionId": "1",
          "lastUpdated": "2024-08-24T00:00:00Z"
        },
        "identifier": [
          {
            "use": "official",
            "system": "http://hospital.example.org",
            "value": "123456"
          }
        ],
        "clinicalStatus": {
          "coding": [
            {
              "system": "http://terminology.hl7.org/CodeSystem/condition-clinical",
              "code": "resolved",
              "display": "Resolved"
            }
          ]
        },
        "verificationStatus": {
          "coding": [
            {
              "system": "http://terminology.hl7.org/CodeSystem/condition-ver-status",
              "code": "confirmed",
              "display": "Confirmed"
            }
          ]
        },
        "category": [
          {
            "coding": [
              {
                "code": "16100001",
                "system": "http://snomed.info/sct"
              },
              {
                "code": "79378-6",
                "system": "http://loinc.org"
              }
            ],
            "text": "Cause of death"
          }
        ],
        "code": {
          "coding": [
            {
              "system": "http://hl7.org/fhir/sid/icd-10",
              "code": "I60",
              "display": "Subarachnoid hemorrhage"
            }
          ],
          "text": "Subarachnoid hemorrhage"
        },
        "subject": {
          "reference": "Patient/example-patient"
        },
        "encounter": {
          "reference": "Encounter/example-encounter"
        },
        "recordedDate": "2024-08-24T00:00:00Z",
        "note": [
          {
            "text": "This condition is recorded as the cause of death based on the patient's medical history."
          }
        ]
      }
    },
    {
      "fullUrl": "urn:uuid:00000000-0000-0000-0000-000000000005",
      "request": {
        "method": "POST",
        "url": "Observation"
      },
      "resource": {
        "resourceType": "Observation",
        "id": "example-observation-vital-status",
        "meta": {
          "profile": [
            "https://www.medizininformatik-initiative.de/fhir/core/modul-labor/StructureDefinition/ObservationLab"
          ]
        },
        "effectiveDateTime": "2022-02-03T04:05:06+01:00",
        "note": [
          {
            "text": "vital status text"
          }
        ],
        "status": "final",
        "code": {
          "coding": [
            {
              "system": "http://loinc.org",
              "code": "8716-3",
              "display": "Vital signs"
            }
          ]
        },
        "valueCodeableConcept": {
          "coding": [
            {
              "system": "http://hl7.org/fhir/ValueSet/vital-status",
              "code": "dead",
              "display": "Dead"
            }
          ]
        }
      }
    }
  ]
}