{
  "resourceType": "Bundle",
  "id": "example-bundle",
  "type": "transaction",
  "entry": [
    {
      "fullUrl": "urn:uuid:0c8265f1-532a-4a5a-943f-e40eb5a7b557",
      "resource": {
        "resourceType": "DiagnosticReport",
        "id": "example-laborbefund",
        "meta": {
          "profile": [
            "https://www.medizininformatik-initiative.de/fhir/core/modul-labor/StructureDefinition/DiagnosticReportLab"
          ],
          "source": "LaboratorySystem"
        },
        "identifier": [
          {
            "use": "official",
            "system": "http://example-laboratory-system.com/identifiers/reports",
            "value": "FILL-12345",
            "type": {
              "coding": [
                {
                  "system": "http://terminology.hl7.org/CodeSystem/v2-0203",
                  "code": "FILL",
                  "display": "Filler Identifier"
                }
              ]
            },
            "assigner": {
              "reference": "Organization/example-lab",
              "display": "Example Lab Organization"
            }
          }
        ],
        "basedOn": [
          {
            "reference": "http://external.fhir.server/ServiceRequest/111"
          }
        ],
        "status": "registered",
        "category": [
          {
            "coding": [
              {
                "system": "LOINC",
                "code": "26436-6",
                "display": "Laboratory studies (set)"
              },
              {
                "system": "http://terminology.hl7.org/CodeSystem/v2-0074",
                "code": "LAB",
                "display": "Laboratory"
              }
            ]
          }
        ],
        "code": {
          "coding": [
            {
              "system": "http://loinc.org",
              "code": "11502-2",
              "display": "Laboratory report"
            }
          ],
          "text": "Complete Blood Count"
        },
        "subject": {
          "identifier": {
            "system": "urn:ietf:rfc:4122",
            "value": "07f602e0-579e-4fe3-95af-381728bf0d49"
          }
        },
        "encounter": {
          "reference": "Encounter/encounter-12345"
        },
        "effectiveDateTime": "2024-08-22T08:30:00Z",
        "issued": "2022-02-03T04:05:06Z",
        "performer": [
          {
            "reference": "Organization/example-lab",
            "display": "Example Lab Organization"
          }
        ],
        "specimen": [
          {
            "reference": "Specimen/example-blood",
            "display": "Blood sample"
          }
        ],
        "result": [
          {
            "reference": "Observation/987",
            "display": "Hemoglobin level"
          }
        ],
        "conclusion": "Normal blood count"
      },
      "request": {
        "method": "POST",
        "url": "DiagnosticReport"
      }
    },
    {
      "fullUrl": "urn:uuid:8ab73d0a-ae92-40a7-9c0b-73c6e5294aee",
      "resource": {
        "resourceType": "Encounter",
        "id": "encounter-12345",
        "identifier": [
          {
            "use": "official",
            "type": {
              "coding": [
                {
                  "system": "http://terminology.hl7.org/CodeSystem/v2-0203",
                  "code": "VN"
                }
              ]
            },
            "system": "http://hospital.smarthealthit.org",
            "value": "encounter-id-1245"
          }
        ],
        "status": "finished",
        "subject": {
          "reference": "/Patient?identifier=urn:ietf:rfc:4122|07f602e0-579e-4fe3-95af-381728bf0d49"
        },
        "period": {
          "start": "2024-08-21T09:00:00+01:00",
          "end": "2024-08-21T09:30:00+01:00"
        }
      }
    ,
      "request": {
        "method": "POST",
        "url": "Encounter"
      }
    },
    {
      "fullUrl": "urn:uuid:75d2ecd3-0ec5-4a3b-94a0-c7203dde89dc",
      "resource": {
        "resourceType": "Observation",
        "id": "987",
        "meta": {
          "profile": [
            "https://www.medizininformatik-initiative.de/fhir/core/modul-labor/StructureDefinition/ObservationLab"
          ]
        },
        "status": "final",
        "category": [
          {
            "coding": [
              {
                "system": "http://terminology.hl7.org/CodeSystem/observation-category",
                "code": "laboratory",
                "display": "Laboratory"
              }
            ]
          }
        ],
        "basedOn": [
          {
            "reference": "ServiceRequest/servicerequest-lab-id-1234",
            "display": "Blood Glucose Test"
          }
        ],
        "code": {
          "coding": [
            {
              "system": "http://loinc.org",
              "code": "718-7",
              "display": "Hemoglobin [Mass/volume] in Blood"
            }
          ],
          "text": "Hemoglobin [Mass/volume] in Blood"
        },
        "subject": {
          "reference": "/Patient?identifier=urn:ietf:rfc:4122|07f602e0-579e-4fe3-95af-381728bf0d49",
          "identifier": {
            "system": "urn:ietf:rfc:4122",
            "value": "07f602e0-579e-4fe3-95af-381728bf0d49"
          }
        },
        "effectiveDateTime": "2024-08-22T12:00:00+00:00",
        "issued": "2022-02-03T04:05:06Z",
        "valueQuantity": {
          "value": 7.4,
          "unit": "g/dL",
          "system": "http://unitsofmeasure.org",
          "code": "g/dL"
        },
        "specimen": [
          {
            "reference": "Specimen/example-blood",
            "display": "Blood sample"
          }
        ],
        "encounter": {
          "reference": "Encounter/encounter-12345"
        },
        "interpretation": [
          {
            "coding": [
              {
                "system": "http://hl7.org/fhir/ValueSet/observation-interpretation",
                "code": "H",
                "display": "High"
              }
            ],
            "text": "Interpretation description"
          }
        ],
        "method": {
          "coding": [
            {
              "system": "http://snomed.info/sct",
              "code": "10828004",
              "display": "Blood test"
            }
          ],
          "text": "Blood test using standard laboratory methods"
        },
        "performer": [
          {
            "reference": "Organization/example-lab"
          }
        ],
        "note": [
          {
            "text": "The observation result is within normal range, but further review may be needed."
          }
        ]
      },
      "request": {
        "method": "POST",
        "url": "Observation"
      }
    },
    {
      "fullUrl": "urn:uuid:00000000-0000-0000-0000-000000000002",
      "request": {
        "method": "POST",
        "url": "Specimen"
      },
      "resource": {
        "resourceType": "Specimen",
        "id": "example-blood",
        "meta": {
          "profile": [
            "https://www.medizininformatik-initiative.de/fhir/core/modul-labor/StructureDefinition/ObservationLab"
          ]
        },
        "status": "available",
        "type": {
          "coding": [
            {
              "system": "http://snomed.info/sct",
              "code": "122555007",
              "display": "Venous blood specimen"
            }
          ],
          "text": "Venous blood specimen"
        },
        "subject": {
          "identifier": {
            "system": "urn:ietf:rfc:4122",
            "value": "4c7d0173-7378-42b2-a9fa-64cd2664674f"
          }
        },
        "encounter": {
          "reference": "Encounter/encounter-12345"
        },
        "identifier": [
          {
            "system": "http://hospital.org/specimens",
            "value": "SP-987654"
          }
        ],
        "receivedTime": "2022-02-03T04:05:06Z",
        "collection": {
          "collectedDateTime": "2024-08-24T09:00:00Z",
          "collector": {
            "reference": "Practitioner/123",
            "type": "Practitioner",
            "identifier": {
              "system": "http://hospital.org/practitioners",
              "value": "1234567"
            },
            "display": "Dr. John Doe"
          },
          "method": {
            "coding": [
              {
                "system": "http://snomed.info/sct",
                "code": "129316008",
                "display": "Aspiration - action"
              }
            ],
            "text": "Aspiration"
          },
          "duration": {
            "value": 5,
            "unit": "minutes",
            "system": "http://unitsofmeasure.org",
            "code": "min"
          },
          "quantity": {
            "value": 10,
            "unit": "mL",
            "system": "http://unitsofmeasure.org",
            "code": "mL"
          },
          "bodySite": {
            "coding": [
              {
                "system": "http://snomed.info/sct",
                "code": "49852007",
                "display": "Arm"
              }
            ],
            "text": "Right arm"
          }
        },
        "note": [
          {
            "text": "Sample collected in the morning."
          }
        ]
      }
    }
  ]
}