{
    "resourceType": "Bundle",
    "id": "example-bundle",
    "type": "transaction",
    "entry": [
      {
        "fullUrl": "urn:uuid:8ab73d0a-ae92-40a7-9c0b-73c6e5294aee",
        "resource": {
          "resourceType": "Encounter",
          "id": "example",
          "meta": {
            "profile": [
              "https://www.medizininformatik-initiative.de/fhir/core/modul-fall/StructureDefinition/KontaktGesundheitseinrichtung"
            ]
          },
          "extension": [
            {
              "url": "http://fhir.de/StructureDefinition/Aufnahmegrund",
              "extension": [
                {
                  "url": "ErsteUndZweiteStelle",
                  "valueCoding": {
                    "system": "http://fhir.de/CodeSystem/dkgev/AufnahmegrundErsteUndZweiteStelle",
                    "code": "01",
                    "display": "Krankenhausbehandlung, vollstationär"
                  }
                },
                {
                  "url": "DritteStelle",
                  "valueCoding": {
                    "system": "http://fhir.de/CodeSystem/dkgev/AufnahmegrundDritteStelle",
                    "code": "0",
                    "display": "Anderes"
                  }
                },
                {
                  "url": "VierteStelle",
                  "valueCoding": {
                    "system": "http://fhir.de/CodeSystem/dkgev/AufnahmegrundVierteStelle",
                    "code": "1",
                    "display": "Normalfall"
                  }
                }
              ]
            },
            {
              "url": "http://hl7.org/fhir/5.0/StructureDefinition/extension-Encounter.plannedStartDate",
              "valueDateTime": "2024-08-21T09:00:00+01:00"
            },
            {
              "url": "http://hl7.org/fhir/5.0/StructureDefinition/extension-Encounter.plannedEndDate",
              "valueDateTime": "2024-08-21T09:30:00+01:00"
            }
          ],
          "identifier": [
            {
              "use": "usual",
              "type": {
                "coding": [
                  {
                    "system": "http://terminology.hl7.org/CodeSystem/v2-0203",
                    "code": "MR"
                  }
                ]
              },
              "system": "http://hospital.smarthealthit.org",
              "value": "encounter-id-12345",
              "assigner": {
                "reference": "Organization/example-lab",
                "display": "Organization"
              }
            }
          ],
          "status": "finished",
          "class": {
            "system": "http://terminology.hl7.org/CodeSystem/v3-ActCode",
            "code": "AMB",
            "display": "ambulatory"
          },
          "type": [
            {
              "coding": [
                {
                  "system": "http://fhir.de/CodeSystem/Kontaktebene",
                  "code": "einrichtungskontakt",
                  "display": "Einrichtungskontakt"
                },
                {
                  "system":  "http://fhir.de/CodeSystem/kontaktart-de",
                  "code": "begleitperson",
                  "display": "Begleitperson"
                }
              ]
            }
          ],
          "subject": {
            "reference": "/Patient?identifier=urn:ietf:rfc:4122|07f602e0-579e-4fe3-95af-381728bf0d49",
            "identifier": {
              "system": "urn:ietf:rfc:4122",
              "value": "07f602e0-579e-4fe3-95af-381728bf0d49"
            }
          },
          "period": {
            "start": "2022-02-03T04:05:06Z",
            "end": "2022-04-03T04:05:06Z"
          },
          "diagnosis": [
            {
              "condition": {
                "reference": "Condition/reference-condition",
                "type": "Condition",
                "identifier": {
                  "type": {
                    "coding": [
                      {
                        "system": "http://terminology.hl7.org/CodeSystem/v2-0203",
                        "code": "MR",
                        "display": "Medical record number"
                      }
                    ],
                    "text": "Medical record number"
                  },
                  "system": "http://hospital.smarthealthit.org/conditions",
                  "value": "CON123456",
                  "period": {
                    "start": "1993-09-08",
                    "end": "1993-12-13"
                  }
                },
                "display": "Related Condition"
              },
              "use": {
                "coding": [
                  {
                    "system": "http://fhir.de/CodeSystem/dki-diagnosetyp",
                    "code": "referral-diagnosis",
                    "display": "Einweisungs-/Überweisungsdiagnos"
                  },
                  {
                    "system": "http://fhir.de/CodeSystem/dki-diagnosesubtyp",
                    "code": "surgery-diagnosis",
                    "display": "Operationsdiagnose"
                  }
                ]
              },
              "rank": 1
            }
          ],

          "hospitalization": {
            "admitSource": {
              "coding": [
                {
                  "system": "http://fhir.de/CodeSystem/dgkev/Aufnahmeanlass",
                  "code": "E",
                  "display": "Einweisung durch einen Arzt"
                }
              ]
            },
            "dischargeDisposition": {
              "extension": [
                {
                  "url": "http://fhir.de/StructureDefinition/Entlassungsgrund",
                  "valueCoding": {
                    "system": "http://fhir.de/CodeSystem/entlassungsgrund",
                    "code": "01",
                    "display": "Reguläre Entlassung"
                  }
                }
              ],
              "coding": [
                {
                  "system": "http://terminology.hl7.org/CodeSystem/discharge-disposition",
                  "code": "home",
                  "display": "Home"
                }
              ],
              "text": "The patient was dicharged and has indicated that they are going to return home afterwards."
            }
          },
          "location": [
            {
              "id": "zimmer-1",
              "location": {
                "reference": "Location/example",
                "display": "Main Hospital Room 101"
              },
              "status": "active",
              "physicalType": {
                "coding": [
                  {
                    "system": "http://terminology.hl7.org/CodeSystem/location-physical-type",
                    "code": "ro"
                  }
                ]
              },
              "period": {
                "start": "2024-08-21T09:00:00+01:00",
                "end": "2024-08-21T17:00:00+01:00"
              }
            },
            {
              "id": "bett-1",
              "location": {
                "reference": "Location/example",
                "display": "Main Hospital Room 101"
              },
              "status": "active",
              "physicalType": {
                "coding": [
                  {
                    "system": "http://terminology.hl7.org/CodeSystem/location-physical-type",
                    "code": "bd"
                  }
                ]
              },
              "period": {
                "start": "2024-08-21T09:00:00+01:00",
                "end": "2024-08-21T17:00:00+01:00"
              }
            },
            {
              "id": "station-1",
              "location": {
                "reference": "Location/example",
                "display": "Main Hospital Room 101"
              },
              "status": "active",
              "physicalType": {
                "coding": [
                  {
                    "system": "http://terminology.hl7.org/CodeSystem/location-physical-type",
                    "code": "wa"
                  }
                ]
              },
              "period": {
                "start": "2024-08-21T09:00:00+01:00",
                "end": "2024-08-21T17:00:00+01:00"
              }
            }
          ],
          "serviceProvider": {
            "reference": "Organization/example-lab",
            "display": "Organization"
          },

          "serviceType": {
            "coding": [
              {
                "system":"http://fhir.de/CodeSystem/dkgev/Fachabteilungsschluessel-erweitert",
                "code": "0100",
                "display": "Innere Medizin"
              },
              {
                "system": "http://fhir.de/CodeSystem/dkgev/Fachabteilungsschluessel",
                "code": "0200",
                "display": "Geriatrie"
              }
            ],
            "text": "General medicine consultation"
          }
        },
        "request": {
          "method": "POST",
          "url": "Encounter"
        }
      },
      {
        "fullUrl": "urn:uuid:11e05b70-b4e6-12ec-b909-0242ac120002",
        "request": {
          "method": "POST",
          "url": "Organization"
        },
        "resource": {
          "resourceType": "Organization",
          "id": "example-lab",
          "identifier": [
            {
              "system": "http://hospital.org/organizations",
              "value": "ORG-001"
            }
          ],
          "name": "Example Hospital"
        }
      }
    ]
}