{
  "resourceType": "Bundle",
  "id": "example-bundle",
  "type": "transaction",
  "entry": [
    {
      "fullUrl": "urn:uuid:00000000-0000-0000-0000-000000000001",
      "request": {
        "method": "POST",
        "url": "ServiceRequest"
      },
      "resource": {
        "resourceType": "ServiceRequest",
        "id": "servicerequest-lab-id-1234",
        "meta": {
          "source" : "Hospital-abc",
          "profile": [
            "https://www.medizininformatik-initiative.de/fhir/core/modul-labor/StructureDefinition/ServiceRequestLab"
          ]
        },
        "identifier": [
          {
            "type": {
              "coding": [
                {
                  "system": "http://terminology.hl7.org/CodeSystem/v2-0203",
                  "code": "MR",
                  "display": "Medical record number"
                }
              ],
              "text": "Medical record identifier"
            },
            "system": "https://fhir.acme.org/identifiers/patient",
            "value": "123456-0_KH",
            "assigner": {
              "reference": "Organization/example-lab",
              "display": "Example Laboratory"
            }
          }
        ],
        "status": "completed",
        "intent": "order",
        "category": [
          {
            "coding": [
              {
                "system": "http://terminology.hl7.org/ValueSet/observation-category",
                "code": "laboratory",
                "display": "Laboratory"
              }
            ],
            "text": "Laboratory"
          }
        ],
        "code": {
          "coding": [
            {
              "system": "http://loinc.org",
              "code": "2345-7",
              "display": "Blood Glucose Test"
            }
          ],
          "text": "Blood Glucose Test"
        },
        "subject": {
          "identifier": {
            "system": "urn:ietf:rfc:4122",
            "value": "4c7d0173-7378-42b2-a9fa-64cd2664674f"
          }
        },
        "authoredOn": "2024-08-24",
        "performer": [
          {
            "reference": "Organization/example-lab",
            "display": "Example Laboratory"
          }
        ],
        "requester": [
          {
            "reference": "Organization/example-lab",
            "display": "Example Laboratory"
          }
        ],
        "reasonCode": [
          {
            "coding": [
              {
                "system": "http://snomed.info/sct",
                "code": "271737000",
                "display": "High blood glucose level"
              }
            ],
            "text": "Hyperglycemia"
          }
        ],
        "encounter": {
          "reference": "Encounter/encounter-12345",
          "display": "Routine Checkup"
        },
        "specimen": [
          {
            "reference": "Specimen/example-blood",
            "display": "Blood specimen"
          }
        ],
        "priority": "routine",
        "note": [
          {
            "text": "Sample collected in the morning."
          }
        ]
      }
    },
    {
      "fullUrl": "urn:uuid:00000000-0000-0000-0000-000000000002",
      "request": {
        "method": "POST",
        "url": "Specimen"
      },
      "resource": {
        "resourceType": "Specimen",
        "id": "example-blood",
        "meta": {
          "profile": [
            "https://www.medizininformatik-initiative.de/fhir/core/modul-labor/StructureDefinition/ObservationLab"
          ]
        },
        "status": "available",
        "type": {
          "coding": [
            {
              "system": "http://snomed.info/sct",
              "code": "122555007",
              "display": "Venous blood specimen"
            }
          ],
          "text": "Venous blood specimen"
        },
        "subject": {
          "identifier": {
            "system": "urn:ietf:rfc:4122",
            "value": "4c7d0173-7378-42b2-a9fa-64cd2664674f"
          }
        },
        "identifier": [
          {
            "system": "http://hospital.org/specimens",
            "value": "SP-987654"
          }
        ],
        "receivedTime": "2024-08-24T09:30:00Z",
        "collection": {
          "collectedDateTime": "2024-08-24T09:00:00Z",
          "collector": {
            "identifier": {
              "value": "example-practitioner"
            },
            "display": "Dr. John Doe"
          }
        },
        "note": [
          {
            "text": "Sample collected in the morning."
          }
        ]
      }
    },
    {
      "fullUrl": "urn:uuid:11e05b70-b4e6-11ec-b909-0242ac120002",
      "request": {
        "method": "POST",
        "url": "Organization"
      },
      "resource": {
        "resourceType": "Organization",
        "id": "example-lab",
        "identifier": [
          {
            "system": "http://hospital.org/organizations",
            "value": "ORG-001"
          }
        ],
        "name": "Example Hospital"
      }
    },
    {
      "fullUrl": "urn:uuid:8ab73d0a-ae92-40a7-9c0b-73c6e5294aee",
      "resource": {
        "resourceType": "Encounter",
        "id": "encounter-12345",
        "identifier": [
          {
            "use": "official",
            "type": {
              "coding": [
                {
                  "system": "http://terminology.hl7.org/CodeSystem/v2-0203",
                  "code": "VN"
                }
              ]
            },
            "system": "http://hospital.smarthealthit.org",
            "value": "encounter-id-1245"
          }
        ],
        "status": "finished",
        "subject": {
          "reference": "/Patient?identifier=urn:ietf:rfc:4122|07f602e0-579e-4fe3-95af-381728bf0d49"
        },
        "period": {
          "start": "2024-08-21T09:00:00+01:00",
          "end": "2024-08-21T09:30:00+01:00"
        }
      }
    ,
      "request": {
        "method": "POST",
        "url": "Encounter"
      }
    }
  ]
}